File: dat/20201202-KS-KS326-PEIS-10mV-1MHz-100mHz-20ptsprdec-charged_symmetric_inert_ref_LMO-VSP_C03.mpt
EC-Lab ASCII FILE
Nb header lines : 86

Potentio Electrochemical Impedance Spectroscopy

Run on channel : 3 (SN 30418)
User : KS
CE vs. WE compliance from -10 V to 10 V
Electrode connection : standard
Ewe ctrl range : min = -10,00 V, max = 10,00 V
Safety Limits :
	Do not start on E overload
Acquisition started on : 12/02/2020 13:58:29
Saved on :
	File : 20201202-KS-KS326-PEIS-10mV-1MHz-100mHz-20ptsprdec-charged_symmetric_inert_ref_LMO-VSP_C03.mpr
	Directory : C:\Users\reaktor\Documents\EC-Lab\Data\Katja\VSP\
	Host : 192.168.0.127
Device : VSP (SN 1273)
Address : 192.168.0.2
EC-Lab for windows v11.21 (software)
Internet server v11.20 (firmware)
Command interpretor v11.21 (firmware)
Electrode material :
Initial state :
Electrolyte :
Comments :
Current amplifier : Low Current
Electrode surface area : 0,001 cm²
Characteristic mass : 0,001 g
Equivalent Weight : 0,000 g/eq.
Density : 0,000 g/cm3
Cycle Definition : Charge/Discharge alternance
Mode                Single sine
E (V)               0,0000
vs.                 Eoc
tE (h:m:s)          0:00:0,0000
record              0
dI                  0,000
unit dI             mA
dt (s)              0,000
fi                  1,000
unit fi             MHz
ff                  20,000
unit ff             mHz
Nd                  10
Points              per decade
spacing             Logarithmic
Va (mV)             10,0
pw                  0,00
Na                  1
corr                0
lim_nb              0
limit_type1         Time
limit_comp1         >
limit_value1        0,000
limit_unit1         s
limit_type2         Time
limit_comp2         >
limit_value2        0,000
limit_unit2         s
limit_type3         Time
limit_comp3         >
limit_value3        0,000
limit_unit3         s
limit_type4         Time
limit_comp4         >
limit_value4        0,000
limit_unit4         s
limit_type5         Time
limit_comp5         >
limit_value5        0,000
limit_unit5         s
limit_type6         Time
limit_comp6         >
limit_value6        0,000
limit_unit6         s
E range min (V)     -10,000
E range max (V)     10,000
I Range             Auto
Bandwidth           4
nc cycles           0
goto Ns'            0
nr cycles           0
inc. cycle          1

freq/Hz	Re(Z)/Ohm	-Im(Z)/Ohm	|Z|/Ohm	Phase(Z)/deg	time/s	<Ewe>/V	<I>/mA	Cs/µF	Cp/µF	cycle number	I Range	|Ewe|/V	|I|/A	Re(Y)/Ohm-1	Im(Y)/Ohm-1	|Y|/Ohm-1	Phase(Y)/deg
1,0000186E+006	-4,8992124E+000	-6,8641634E+000	8,4332094E+000	1,2551688E+002	1,358600064559141E+000	5,1185307E-003	1,6772549E-001	-2,3185926E-002	-1,5360802E-002	1,000000000000000E+000	10	7,8507037E-006	9,3092711E-007	-6,8887509E-002	-9,6516557E-002	1,1857881E-001	-1,2551688E+002
7,9194813E+005	-6,9128591E-001	-5,8604872E-001	9,0627223E-001	1,3970985E+002	1,753600083320634E+000	2,5633071E-003	9,2145212E-002	-3,4291750E-001	-1,4339690E-001	1,000000000000000E+000	10	1,2374132E-005	1,3653879E-005	-8,4166712E-001	-7,1353680E-001	1,1034212E+000	-1,3970985E+002
6,2718044E+005	-6,5067714E-001	-1,3897845E+000	1,5345623E+000	1,1508832E+002	2,148600102082128E+000	1,4849271E-003	5,9741165E-002	-1,8259133E-001	-1,4976351E-001	1,000000000000000E+000	10	8,1771279E-005	5,3286385E-005	-2,7630991E-001	-5,9017175E-001	6,5165162E-001	-1,1508832E+002
4,9669684E+005	-3,1472942E-001	-5,0979650E-001	5,9912193E-001	1,2168964E+002	2,543600120843621E+000	9,9569210E-004	4,4461191E-002	-6,2853849E-001	-4,5508775E-001	1,000000000000000E+000	10	7,7386867E-005	1,2916714E-004	-8,7681293E-001	-1,4202553E+000	1,6691093E+000	-1,2168964E+002
3,9336216E+005	1,4487065E+000	-2,1024530E-001	1,4638830E+000	8,2574701E+000	3,046679291401233E+000	5,8020034E-004	3,1463064E-002	-1,9244263E+000	-3,9695483E-002	1,000000000000000E+000	10	3,7797596E-004	2,5820092E-004	6,7603260E-001	-9,8110065E-002	6,8311471E-001	-8,2574701E+000
3,1152575E+005	1,4689493E+000	-3,3790636E-001	1,5073131E+000	1,2954543E+001	3,310695997271978E+000	2,8185124E-004	2,2779025E-002	-1,5119234E+000	-7,5982854E-002	1,000000000000000E+000	10	6,9479347E-004	4,6094833E-004	6,4654666E-001	-1,4872687E-001	6,6343218E-001	-1,2954543E+001
2,4670613E+005	1,4947411E+000	-3,4978176E-003	1,4947451E+000	1,3407661E-001	3,574698676478874E+000	1,1299131E-004	1,7444178E-002	-1,8443489E+002	-1,0099574E-003	1,000000000000000E+000	10	1,1501327E-003	7,6945074E-004	6,6900855E-001	-1,5655353E-003	6,6901040E-001	-1,3407661E-001
1,9537745E+005	1,5109737E+000	3,2257885E-001	1,5450238E+000	-1,2051199E+001	3,838686182352831E+000	3,6301240E-005	1,5266654E-002	2,5252814E+000	1,1008071E-001	1,000000000000000E+000	10	1,9079791E-003	1,2349189E-003	6,3297498E-001	1,3513428E-001	6,4723921E-001	1,2051199E+001
1,5472833E+005	1,5693582E+000	6,4551097E-001	1,6969295E+000	-2,2358427E+001	4,102701474890637E+000	-1,2021695E-005	1,5443642E-002	1,5934802E+000	2,3058251E-001	1,000000000000000E+000	10	3,3220893E-003	1,9577062E-003	5,4499745E-001	2,2416927E-001	5,8929968E-001	2,2358427E+001
1,2254120E+005	1,6544825E+000	9,7210783E-001	1,9189335E+000	-3,0436794E+001	4,366703194093134E+000	-5,9188260E-005	1,3858486E-002	1,3360527E+000	3,4287244E-001	1,000000000000000E+000	10	5,9537776E-003	3,1026492E-003	4,4930610E-001	2,6399434E-001	5,2112281E-001	3,0436794E+001
9,7043867E+004	1,7554768E+000	1,3320270E+000	2,2036321E+000	-3,7190628E+001	4,499680933746276E+000	-7,4015108E-005	1,2252856E-002	1,2312295E+000	4,4986981E-001	1,000000000000000E+000	10	1,0919902E-002	4,9554105E-003	3,6150718E-001	2,7430570E-001	4,5379627E-001	3,7190628E+001
7,6853844E+004	1,8815978E+000	1,7235910E+000	2,5517006E+000	-4,2490471E+001	4,763680786287296E+000	-1,9724041E-005	1,4868123E-002	1,2014904E+000	5,4818773E-001	1,000000000000000E+000	10	1,0883258E-002	4,2650998E-003	2,8897971E-001	2,6471272E-001	3,9189550E-001	4,2490471E+001
6,0866984E+004	2,0476265E+000	2,1735287E+000	2,9861348E+000	-4,6708427E+001	5,027702318824595E+000	-1,1499246E-005	1,6490545E-002	1,2030203E+000	6,3736016E-001	1,000000000000000E+000	10	1,0909493E-002	3,6533826E-003	2,2963174E-001	2,4375109E-001	3,3488107E-001	4,6708427E+001
4,8201824E+004	2,2614579E+000	2,6821587E+000	3,5082998E+000	-4,9864140E+001	5,291689024699735E+000	-1,0390778E-007	1,6045315E-002	1,2310401E+000	7,1952802E-001	1,000000000000000E+000	10	1,0835481E-002	3,0885276E-003	1,8373637E-001	2,1791698E-001	2,8503835E-001	4,9864140E+001
3,8171766E+004	2,5410275E+000	3,2864196E+000	4,1541996E+000	-5,2289154E+001	5,555702903904603E+000	3,7194022E-006	1,1857889E-002	1,2686881E+000	7,9401034E-001	1,000000000000000E+000	10	1,0763895E-002	2,5910875E-003	1,4724299E-001	1,9043566E-001	2,4072026E-001	5,2289154E+001
3,0229361E+004	2,9298742E+000	3,9816132E+000	4,9434204E+000	-5,3652470E+001	5,819691823111498E+000	2,4698320E-006	1,6660003E-002	1,3223064E+000	8,5781801E-001	1,000000000000000E+000	10	1,0701803E-002	2,1648579E-003	1,1989301E-001	1,6293110E-001	2,0228909E-001	5,3652470E+001
2,3938541E+004	3,4592326E+000	4,7659273E+000	5,8890028E+000	-5,4026894E+001	6,083696795649303E+000	8,6590069E-007	1,6486766E-002	1,3950026E+000	9,1366363E-001	1,000000000000000E+000	10	1,0633672E-002	1,8056829E-003	9,9746160E-002	1,3742441E-001	1,6980803E-001	5,4026894E+001
1,8965264E+004	4,1686754E+000	5,6190124E+000	6,9965100E+000	-5,3428738E+001	6,347703848186939E+000	6,7407423E-006	1,6743800E-002	1,4934863E+000	9,6329278E-001	1,000000000000000E+000	10	1,0577163E-002	1,5117769E-003	8,5159905E-002	1,1478815E-001	1,4292841E-001	5,3428738E+001
1,5012617E+004	5,0349360E+000	6,5480680E+000	8,2600107E+000	-5,2442623E+001	6,611678447392478E+000	1,1533865E-005	1,7127521E-002	1,6190138E+000	1,0174562E+000	1,000000000000000E+000	10	1,0466034E-002	1,2670726E-003	7,3795982E-002	9,5973648E-002	1,2106522E-001	5,2442623E+001
1,1895038E+004	6,1652923E+000	7,4767904E+000	9,6908836E+000	-5,0491322E+001	6,875679926597513E+000	1,6047234E-005	1,7419970E-002	1,7895304E+000	1,0652285E+000	1,000000000000000E+000	10	1,0249648E-002	1,0576588E-003	6,5648824E-002	7,9613820E-002	1,0318977E-001	5,0491322E+001
9,4209590E+003	7,5706177E+000	8,3472471E+000	1,1269019E+001	-4,7793236E+001	7,009714626299683E+000	3,3650454E-006	1,6725166E-002	2,0238659E+000	1,1104424E+000	1,000000000000000E+000	10	1,0842567E-002	9,6215715E-004	5,9615485E-002	6,5731123E-002	8,8738866E-002	4,7793236E+001
7,4553955E+003	9,2377930E+000	9,0694628E+000	1,2945732E+001	-4,4473194E+001	7,172180233959807E+000	-1,8586374E-005	1,6184973E-002	2,3537908E+000	1,1552547E+000	1,000000000000000E+000	10	1,0887873E-002	8,4103958E-004	5,5120736E-002	5,4116327E-002	7,7245533E-002	4,4473194E+001
5,9317129E+003	1,1109437E+001	9,5562944E+000	1,4654090E+001	-4,0701988E+001	7,367889176617609E+000	-3,1902691E-005	1,6469965E-002	2,8076985E+000	1,1940206E+000	1,000000000000000E+000	10	1,0762378E-002	7,3442823E-004	5,1733799E-002	4,4501211E-002	6,8240337E-002	4,0701988E+001
4,6755117E+003	1,3157574E+001	9,7538776E+000	1,6378641E+001	-3,6550011E+001	7,589320680446690E+000	-2,1812883E-005	2,0553064E-002	3,4899054E+000	1,2376919E+000	1,000000000000000E+000	10	1,0595411E-002	6,4690417E-004	4,9047865E-002	3,6359806E-002	6,1055128E-002	3,6550011E+001
3,7061863E+003	1,5105376E+001	9,5838308E+000	1,7889164E+001	-3,2393692E+001	7,809068690898130E+000	-1,7859029E-005	1,9923463E-002	4,4807816E+000	1,2860326E+000	1,000000000000000E+000	10	1,0459645E-002	5,8469165E-004	4,7201026E-002	2,9947395E-002	5,5899762E-002	3,2393692E+001
2,9321853E+003	1,6980551E+001	9,1284056E+000	1,9278664E+001	-2,8261587E+001	8,029332648002310E+000	-1,1797687E-005	2,0590317E-002	5,9461217E+000	1,3331218E+000	1,000000000000000E+000	10	1,0361979E-002	5,3748430E-004	4,5687556E-002	2,4560718E-002	5,1870815E-002	2,8261587E+001
2,3227700E+003	1,8638651E+001	8,4650393E+000	2,0470861E+001	-2,4425928E+001	8,249337138462579E+000	-1,9742729E-005	2,0504631E-002	8,0944052E+000	1,3841102E+000	1,000000000000000E+000	10	1,0296740E-002	5,0299492E-004	4,4477690E-002	2,0200249E-002	4,8849922E-002	2,4425928E+001
1,8405891E+003	2,0048233E+001	7,7204285E+000	2,1483404E+001	-2,1061333E+001	8,469085842254572E+000	-1,5229351E-005	1,9796792E-002	1,1200099E+001	1,4464335E+000	1,000000000000000E+000	10	1,0258581E-002	4,7751187E-004	4,3438006E-002	1,6727662E-002	4,6547558E-002	2,1061333E+001
1,4573314E+003	2,1196882E+001	6,8453035E+000	2,2274784E+001	-1,7897301E+001	8,688834226049948E+000	-1,2823464E-005	2,0033360E-002	1,5953980E+001	1,5067024E+000	1,000000000000000E+000	10	1,0219399E-002	4,5878778E-004	4,2721350E-002	1,3796397E-002	4,4893812E-002	1,7897301E+001
1,1538926E+003	2,2101452E+001	6,0278344E+000	2,2908709E+001	-1,5255520E+001	8,908345676405588E+000	-1,0865179E-005	2,0376101E-002	2,2881971E+001	1,5842177E+000	1,000000000000000E+000	10	1,0193836E-002	4,4497644E-004	4,2113326E-002	1,1485770E-002	4,3651521E-002	1,5255520E+001
9,1412268E+002	2,2817318E+001	5,2695684E+000	2,3417906E+001	-1,3004233E+001	9,128348646889208E+000	-1,5154754E-005	2,0513942E-002	3,3040043E+001	1,6729949E+000	1,000000000000000E+000	10	1,0176544E-002	4,3456251E-004	4,1607197E-002	9,6090166E-003	4,2702366E-002	1,3004233E+001
7,2337988E+002	2,3421291E+001	4,5894670E+000	2,3866714E+001	-1,1086790E+001	9,347610950682792E+000	-1,2170701E-005	2,0405903E-002	4,7939274E+001	1,7726814E+000	1,000000000000000E+000	10	1,0170601E-002	4,2614166E-004	4,1117389E-002	8,0570672E-003	4,1899357E-002	1,1086790E+001
5,7298315E+002	2,3907898E+001	3,9864028E+000	2,4237967E+001	-9,4664097E+000	9,569844641227974E+000	-1,0715985E-005	1,9895516E-002	6,9678230E+001	1,8848078E+000	1,000000000000000E+000	10	1,0159536E-002	4,1915794E-004	4,0695749E-002	6,7856088E-003	4,1257586E-002	9,4664097E+000
4,5398309E+002	2,4306171E+001	3,5698781E+000	2,4566929E+001	-8,3553667E+000	9,789587371546077E+000	-1,8698316E-005	1,9834047E-002	9,8203514E+001	2,0736339E+000	1,000000000000000E+000	10	1,0159821E-002	4,1355682E-004	4,0273078E-002	5,9149577E-003	4,0705130E-002	8,3553667E+000
3,5965475E+002	2,4691034E+001	3,1308138E+000	2,4888737E+001	-7,2265177E+000	1,001035407543532E+001	-2,7240159E-005	2,0003555E-002	1,4134390E+002	2,2365873E+000	1,000000000000000E+000	10	1,0168575E-002	4,0856132E-004	3,9859660E-002	5,0541894E-003	4,0178817E-002	7,2265177E+000
2,8472668E+002	2,4929689E+001	2,8158216E+000	2,5088209E+001	-6,4442768E+000	1,023031160587561E+001	-1,8698314E-005	2,0415217E-002	1,9851202E+002	2,5006781E+000	1,000000000000000E+000	10	1,0163536E-002	4,0511208E-004	3,9607510E-002	4,4736895E-003	3,9859362E-002	6,4442768E+000
2,2536060E+002	2,5184706E+001	2,5230758E+000	2,5310774E+001	-5,7209663E+000	1,044980308301456E+001	-9,1493521E-006	2,0230807E-002	2,7990576E+002	2,7813880E+000	1,000000000000000E+000	10	1,0152916E-002	4,0113024E-004	3,9312080E-002	3,9383965E-003	3,9508868E-002	5,7209663E+000
1,7868486E+002	2,5483471E+001	2,3586965E+000	2,5592396E+001	-5,2881103E+000	1,092063739872901E+001	4,8010861E-006	1,1665843E-002	3,7762463E+002	3,2076173E+000	1,000000000000000E+000	11	1,0164070E-002	3,9715195E-004	3,8907804E-002	3,6012244E-003	3,9074108E-002	5,2881103E+000
1,4149420E+002	2,5740488E+001	2,1742198E+000	2,5832150E+001	-4,8281379E+000	1,113903660906362E+001	-1,3908215E-006	1,1670323E-002	5,1734235E+002	3,6649146E+000	1,000000000000000E+000	11	1,0175059E-002	3,9389130E-004	3,8574088E-002	3,2582348E-003	3,8711451E-002	4,8281379E+000
1,1204369E+002	2,5928951E+001	2,0573184E+000	2,6010441E+001	-4,5365982E+000	1,135546477933531E+001	4,9502855E-006	1,1461680E-002	6,9044836E+002	4,3195529E+000	1,000000000000000E+000	11	1,0154398E-002	3,9039701E-004	3,8325649E-002	3,0409277E-003	3,8446099E-002	4,5365982E+000
8,8666428E+001	2,6172476E+001	2,0111260E+000	2,6249630E+001	-4,3940449E+000	1,157915046994458E+001	7,2256244E-006	1,1638970E-002	8,9252753E+002	5,2390656E+000	1,000000000000000E+000	11	1,0161705E-002	3,8711805E-004	3,7983801E-002	2,9187230E-003	3,8095776E-002	4,3940449E+000
7,0202209E+001	2,6377054E+001	1,9642007E+000	2,6450087E+001	-4,2587423E+000	1,179857032038854E+001	2,3175470E-007	1,1378074E-002	1,1542064E+003	6,3650379E+000	1,000000000000000E+000	11	1,0157343E-002	3,8401928E-004	3,7702668E-002	2,8075769E-003	3,7807059E-002	4,2587423E+000
5,5659000E+001	2,6562084E+001	1,9458853E+000	2,6633265E+001	-4,1898899E+000	1,201676857078564E+001	7,3531760E-007	1,1717164E-002	1,4694929E+003	7,8442812E+000	1,000000000000000E+000	11	1,0151847E-002	3,8117173E-004	3,7446681E-002	2,7432691E-003	3,7547030E-002	4,1898899E+000
4,4055450E+001	2,6780478E+001	1,9957541E+000	2,6854738E+001	-4,2619596E+000	1,224142748807208E+001	-6,6345808E-007	1,1507030E-002	1,8101454E+003	9,9973679E+000	1,000000000000000E+000	11	1,0156700E-002	3,7820888E-004	3,7134402E-002	2,7673570E-003	3,7237376E-002	4,2619596E+000
3,4877232E+001	2,6951832E+001	2,0410306E+000	2,7029003E+001	-4,3306766E+000	1,246186048525851E+001	2,0035343E-006	1,1541181E-002	2,2357776E+003	1,2748750E+001	1,000000000000000E+000	11	1,0149687E-002	3,7551095E-004	3,6891662E-002	2,7937626E-003	3,6997296E-002	4,3306766E+000
2,7638565E+001	2,7211575E+001	2,1719787E+000	2,7298119E+001	-4,5635705E+000	1,269829814977129E+001	6,6381645E-006	1,1854237E-002	2,6512405E+003	1,6783974E+001	1,000000000000000E+000	11	1,0156507E-002	3,7205886E-004	3,6516424E-002	2,9146748E-003	3,6632560E-002	4,5635705E+000
2,1883753E+001	2,7446596E+001	2,3162372E+000	2,7544157E+001	-4,8238006E+000	1,290089538609027E+001	6,3902021E-008	1,0635695E-002	3,1398960E+003	2,2203548E+001	1,000000000000000E+000	11	1,0146644E-002	3,6837737E-004	3,6176749E-002	3,0529806E-003	3,6305342E-002	4,8238006E+000
1,7335432E+001	2,7752855E+001	2,5331471E+000	2,7868223E+001	-5,2152319E+000	1,309411448860192E+001	-1,3606780E-005	1,1685625E-002	3,6243076E+003	2,9945208E+001	1,000000000000000E+000	11	1,0148435E-002	3,6415795E-004	3,5734616E-002	3,2616835E-003	3,5883162E-002	5,2152319E+000
1,3722188E+001	2,8128431E+001	2,8094332E+000	2,8268385E+001	-5,7037158E+000	1,333379514000262E+001	8,1115350E-006	1,1345508E-002	4,1283647E+003	4,0776833E+001	1,000000000000000E+000	11	1,0155787E-002	3,5926307E-004	3,5200071E-002	3,5157397E-003	3,5375208E-002	5,7037158E+000
1,0865783E+001	2,8613684E+001	3,0986714E+000	2,8780977E+001	-6,1806655E+000	1,353718650960946E+001	-6,7994142E-006	1,0334489E-002	4,7269780E+003	5,4792809E+001	1,000000000000000E+000	11	1,0150194E-002	3,5267023E-004	3,4543209E-002	3,7407998E-003	3,4745172E-002	6,1806655E+000
8,6040726E+000	2,9119476E+001	3,3002717E+000	2,9305899E+001	-6,4660573E+000	1,379066446837533E+001	8,1488324E-006	1,1683291E-002	5,6048809E+003	7,1081352E+001	1,000000000000000E+000	11	1,0154593E-002	3,4650337E-004	3,3905759E-002	3,8427280E-003	3,4122825E-002	6,4660573E+000
6,8171906E+000	2,9802031E+001	3,4612451E+000	3,0002354E+001	-6,6247234E+000	1,395670668959792E+001	-9,4850584E-006	1,1792931E-002	6,7450059E+003	8,9771065E+001	1,000000000000000E+000	11	1,0155171E-002	3,3847915E-004	3,3108175E-002	3,8452246E-003	3,3330720E-002	6,6247234E+000
5,3953729E+000	3,0506596E+001	3,6670022E+000	3,0726198E+001	-6,8542724E+000	1,416345357938553E+001	-5,4192906E-006	1,1513745E-002	8,0442856E+003	1,1457561E+002	1,000000000000000E+000	11	1,0158043E-002	3,3059876E-004	3,2312911E-002	3,8841281E-003	3,2545518E-002	6,8542724E+000
4,2737961E+000	3,1093790E+001	3,6739981E+000	3,1310095E+001	-6,7387433E+000	1,441823417812702E+001	6,6195107E-006	1,0976743E-002	1,0136019E+004	1,3956500E+002	1,000000000000000E+000	11	1,0154996E-002	3,2433617E-004	3,1717937E-002	3,7477463E-003	3,1938583E-002	6,7387433E+000
3,3849652E+000	3,1784565E+001	3,5471203E+000	3,1981880E+001	-6,3677940E+000	1,473382221983047E+001	6,3926791E-008	1,0504032E-002	1,3255313E+004	1,6305490E+002	1,000000000000000E+000	11	1,0153262E-002	3,1746921E-004	3,1074798E-002	3,4679112E-003	3,1267706E-002	6,3677940E+000
2,6791840E+000	3,2497841E+001	3,3257301E+000	3,2667572E+001	-5,8431339E+000	1,512681991849968E+001	1,2168241E-005	1,0990717E-002	1,7862021E+004	1,8512749E+002	1,000000000000000E+000	11	1,0155321E-002	3,1086855E-004	3,0452350E-002	3,1164007E-003	3,0611396E-002	5,8431339E+000
2,1229622E+000	3,3078785E+001	3,1118040E+000	3,3224831E+001	-5,3741412E+000	1,561692628843593E+001	1,0349578E-005	1,0925934E-002	2,4091598E+004	2,1133165E+002	1,000000000000000E+000	11	1,0150595E-002	3,0551231E-004	2,9965671E-002	2,8189453E-003	3,0097971E-002	5,3741412E+000
1,6801078E+000	3,3572243E+001	2,8975966E+000	3,3697056E+001	-4,9329333E+000	1,623142247760552E+001	1,0377814E-005	1,0835832E-002	3,2692270E+004	2,4173358E+002	1,000000000000000E+000	11	1,0151278E-002	3,0125119E-004	2,9566264E-002	2,5518434E-003	2,9676184E-002	4,9329333E+000
1,3313738E+000	3,3981155E+001	2,6907866E+000	3,4087524E+001	-4,5275002E+000	1,779965631213054E+001	9,0567582E-006	1,0292561E-002	4,4426371E+004	2,7682700E+002	1,000000000000000E+000	12	1,0155672E-002	2,9792931E-004	2,9244704E-002	2,3157322E-003	2,9336246E-002	4,5275002E+000
1,0546033E+000	3,4309662E+001	2,4949670E+000	3,4400257E+001	-4,1591754E+000	1,876733729135594E+001	9,4357101E-006	9,8431576E-003	6,0487570E+004	3,1817966E+002	1,000000000000000E+000	12	1,0150251E-002	2,9506322E-004	2,8992994E-002	2,1083439E-003	2,9069550E-002	4,1591754E+000
8,3556122E-001	3,4615063E+001	2,3236692E+000	3,4692966E+001	-3,8404379E+000	1,998362433586590E+001	8,9044515E-006	9,4873691E-003	8,1972383E+004	3,6773355E+002	1,000000000000000E+000	12	1,0154086E-002	2,9268430E-004	2,8759560E-002	1,9305962E-003	2,8824287E-002	3,8404379E+000
6,6117972E-001	3,4868595E+001	2,1822462E+000	3,4936817E+001	-3,5811775E+000	2,151697424866143E+001	1,6068854E-005	9,1576353E-003	1,1030543E+005	4,3036575E+002	1,000000000000000E+000	12	1,0152416E-002	2,9059363E-004	2,8567208E-002	1,7878747E-003	2,8623100E-002	3,5811775E+000
5,2341551E-001	3,5097095E+001	2,1310928E+000	3,5161736E+001	-3,4747291E+000	2,344887186042615E+001	1,1494646E-005	8,9613078E-003	1,4268266E+005	5,2412555E+002	1,000000000000000E+000	12	1,0157268E-002	2,8887278E-004	2,8387723E-002	1,7237003E-003	2,8440006E-002	3,4747291E+000
4,1485238E-001	3,5299500E+001	2,0918853E+000	3,5361427E+001	-3,3914416E+000	2,588241626930540E+001	1,3554334E-005	8,6601889E-003	1,8339550E+005	6,4180762E+002	1,000000000000000E+000	12	1,0155519E-002	2,8719197E-004	2,8229875E-002	1,6729319E-003	2,8279401E-002	3,3914416E+000
3,2825628E-001	3,5517410E+001	2,0998874E+000	3,5579433E+001	-3,3835459E+000	2,895316740186536E+001	1,1045918E-005	8,3128912E-003	2,3089316E+005	8,0427588E+002	1,000000000000000E+000	12	1,0153414E-002	2,8537313E-004	2,8057132E-002	1,6588150E-003	2,8106125E-002	3,3835459E+000
2,6015654E-001	3,5749336E+001	2,1324296E+000	3,5812878E+001	-3,4136193E+000	3,282386662572389E+001	1,1916743E-005	7,9052420E-003	2,8688688E+005	1,0171422E+003	1,000000000000000E+000	12	1,0154428E-002	2,8354125E-004	2,7873375E-002	1,6626326E-003	2,7922917E-002	3,4136193E+000
2,0618895E-001	3,5969288E+001	2,2221251E+000	3,6037861E+001	-3,5351489E+000	3,770383475084964E+001	1,5926104E-005	7,5545660E-003	3,4736516E+005	1,3207031E+003	1,000000000000000E+000	12	1,0151654E-002	2,8169414E-004	2,7695794E-002	1,7110019E-003	2,7748594E-002	3,5351489E+000
1,6335939E-001	3,6216888E+001	2,3376594E+000	3,6292252E+001	-3,6930969E+000	4,385936597650289E+001	1,3635662E-005	7,1666101E-003	4,1676844E+005	1,7291372E+003	1,000000000000000E+000	12	1,0154415E-002	2,7979567E-004	2,7496872E-002	1,7748162E-003	2,7554091E-002	3,6930969E+000
1,2914935E-001	3,6476933E+001	2,4975650E+000	3,6562336E+001	-3,9169121E+000	5,164157143948250E+001	1,7347254E-005	6,8353456E-003	4,9341359E+005	2,3023792E+003	1,000000000000000E+000	12	1,0153879E-002	2,7771419E-004	2,7286664E-002	1,8683099E-003	2,7350551E-002	3,9169121E+000
1,0236504E-001	3,6756359E+001	2,7038786E+000	3,6855675E+001	-4,2072258E+000	6,145613638564828E+001	1,5980188E-005	6,4119557E-003	5,7501781E+005	3,0949021E+003	1,000000000000000E+000	12	1,0150153E-002	2,7540274E-004	2,7059747E-002	1,9905746E-003	2,7132863E-002	4,2072258E+000
8,1005573E-002	3,7056084E+001	2,9428904E+000	3,7172756E+001	-4,5407405E+000	7,385481196126784E+001	1,2538640E-005	5,9499573E-003	6,6762281E+005	4,1843677E+003	1,000000000000000E+000	12	1,0154000E-002	2,7315703E-004	2,6816987E-002	2,1297301E-003	2,6901422E-002	4,5407405E+000
6,4129397E-002	3,7429932E+001	3,2490315E+000	3,7570679E+001	-4,9610124E+000	8,951242865159293E+001	1,8369103E-005	4,9914378E-003	7,6385169E+005	5,7124028E+003	1,000000000000000E+000	12	1,0157497E-002	2,7035701E-004	2,6516790E-002	2,3017377E-003	2,6616501E-002	4,9610124E+000
5,0859984E-002	3,7742332E+001	3,6050179E+000	3,7914112E+001	-5,4561429E+000	1,092513684691221E+002	1,9185611E-005	5,1416741E-003	8,6803344E+005	7,8478296E+003	1,000000000000000E+000	12	1,0156979E-002	2,6789441E-004	2,6255904E-002	2,5078736E-003	2,6375404E-002	5,4561429E+000
4,0245723E-002	3,8138172E+001	4,0177689E+000	3,8349220E+001	-6,0137973E+000	1,341913333604170E+002	1,4215620E-005	4,7919187E-003	9,8427275E+005	1,0803694E+004	1,000000000000000E+000	12	1,0156044E-002	2,6483051E-004	2,5932644E-002	2,7319447E-003	2,6076149E-002	6,0137973E+000
3,1919021E-002	3,8572491E+001	4,4941692E+000	3,8833420E+001	-6,6456990E+000	1,656348516272410E+002	1,6221356E-005	4,6482761E-003	1,1094843E+006	1,4859655E+004	1,000000000000000E+000	12	1,0152666E-002	2,6144146E-004	2,5577988E-002	2,9801503E-003	2,5751015E-002	6,6456990E+000
2,5282027E-002	3,9070126E+001	5,0626025E+000	3,9396759E+001	-7,3830962E+000	2,053290394326032E+002	1,2918988E-005	4,3412116E-003	1,2434674E+006	2,0533408E+004	1,000000000000000E+000	12	1,0155082E-002	2,5776439E-004	2,5172353E-002	3,2617662E-003	2,5382798E-002	7,3830962E+000
1,9992474E-002	3,9638184E+001	5,7124491E+000	4,0047691E+001	-8,2007074E+000	2,555215638432710E+002	1,2468980E-005	4,0334561E-003	1,3935779E+006	2,8354434E+004	1,000000000000000E+000	12	1,0154728E-002	2,5356587E-004	2,4714895E-002	3,5617822E-003	2,4970228E-002	8,2007074E+000